File: Data/El-Hamra.csv
Well,Date,Well,Tubing OD (in),Plunger Diameter (in),Pump Intake Depth (ft),Pump Intake Depth TVD (ft),Damp Up,Damp Down,Formation Depth (ft),Formation Depth TVD (ft),Tubing Pressure (psi (g)),Oil API (deg.API),Water Specific Gravity (Sp.Gr.H2O),Gas Specific Gravity (Sp.Gr.AIR),Gearbox Rating (in-lb),Measured Stroke Length (in),Rated HP (HP),Dynamometer Date,PPRL (lb),MPRL (lb),PPMPL (lb),MPMPL (lb),Polished Rod Power (HP),Plunger Stroke (in),SPM (spm),Pump Volumetric Fillage (%),Effective Plunger Stroke (in),Pump Displacement (BBL/D),Unaccounted Friction (lb),Gearbox Peak Existing (in-lb),Stroke,Measured Load TV (lbf),Calculate Buoyant Rod Weight (lbf),Measured Load SV (lbf),Calc. Fluid Load (lbf),Total Gaseous Liquid Column HT (TVD) (ft),Equivalent Gas Free Liquid HT (TVD) (ft), 1343664010quid (%),Pump Intake Pressure (psi (g)),
9.875,08/27/16 - 10:46,AEB_10,3.500,2.500,4475.00,4475.00,0.04475,0.04475,10929.00,10929.00,X,40,1.05,X,640000,146.553,X,08/27/16 - 10:46,14881,8662,2116,-220,5.5,143.0,5.085,98.74,141.2,523.2,220.0,1042731.7,3,X,X,X,X,X,X,X,X,
9.875,09/21/16 - 16:27,AEB_10,3.500,2.500,4475.00,4475.00,0.04475,0.04475,10929.00,10929.00,X,40,1.05,X,640000,146.553,X,09/21/16 - 16:27,17880,7653,4523,-541,10.8,137.1,5.980,96.86,132.8,578.9,541.1,1197857.1,7,12354,10604,8756,9995,2744,2744,100,1070.5,
9.875,10/18/16 - 09:34,AEB_10,3.500,2.500,4475.00,4475.00,0.04475,0.04475,10929.00,10929.00,X,40,1.05,X,640000,146.553,X,X,X,X,X,X,X,X,X,X,X,X,X,X,X,X,X,X,X,3487,3487,100,1281.7,
9.875,10/25/16 - 14:04,AEB_10,3.500,2.500,4475.00,4475.00,0.04475,0.04475,10929.00,10929.00,X,40,1.05,X,640000,125.106,X,10/25/16 - 14:04,17485,8132,4494,-429,8.6,115.7,6.000,96.31,111.5,487.4,429.1,984621.7,5,X,X,X,X,X,X,X,X,
9.875,12/21/16 - 18:28,AEB_10,3.500,2.250,4775.00,4775.00,0.04475,0.04475,10929.00,10929.00,X,40,1.05,X,640000,125.106,X,12/21/16 - 18:30,22560,7455,8392,-332,8.0,109.0,5.980,45.87,50.0,176.5,331.6,1358844.2,0,X,X,X,X,X,X,X,X,
9.875,12/23/16 - 14:26,AEB_10,3.500,2.250,4775.00,4775.00,0.04475,0.04475,10929.00,10929.00,X,40,1.05,X,640000,125.106,X,12/23/16 - 14:35,19624,7888,6048,-291,11.5,113.6,5.960,99.04,112.5,395.9,290.6,1131628.6,27,X,X,X,X,X,X,X,X,
9.875,12/24/16 - 09:47,AEB_10,3.500,2.250,4775.00,4775.00,0.04475,0.04475,10929.00,10929.00,X,40,1.05,X,640000,125.106,X,12/24/16 - 09:47,19857,7203,6511,-807,6.9,112.7,5.960,49.56,55.8,196.5,807.0,1157119.1,0,X,X,X,X,X,X,X,X,
9.875,12/25/16 - 09:36,AEB_10,3.500,2.250,4775.00,4775.00,0.04475,0.04475,10929.00,10929.00,X,40,1.05,X,640000,125.106,X,12/25/16 - 09:36,20478,7591,6572,-1429,5.9,109.5,5.960,36.83,40.3,141.8,1428.8,1199780.4,0,X,X,X,X,X,X,X,X,
9.875,12/26/16 - 10:52,AEB_10,3.500,2.250,4775.00,4775.00,0.04475,0.04475,10929.00,10929.00,X,40,1.05,X,640000,125.106,X,12/26/16 - 10:52,20238,7495,6849,-600,6.7,111.3,5.980,44.35,49.4,174.2,599.7,1181838.8,5,X,X,X,X,X,X,X,X,
9.875,12/27/16 - 11:46,AEB_10,3.500,2.250,4775.00,4775.00,0.04475,0.04475,10929.00,10929.00,X,40,1.05,X,640000,125.106,X,12/27/16 - 11:48,21645,6884,7208,-254,10.5,109.2,5.980,76.70,83.8,295.7,253.9,1264474.5,3,X,X,X,X,X,X,X,X,
9.875,01/18/17 - 16:38,AEB_10,2.875,1.750,6070.00,6070.00,0.04475,0.04475,10929.00,10929.00,X,40,1.05,X,640000,125.106,X,01/18/17 - 16:38,16163,8155,3106,-562,6.5,114.2,6.020,95.96,109.6,235.5,561.7,986995.8,6,X,X,X,X,X,X,X,X,
9.875,01/19/17 - 16:24,AEB_10,2.875,1.750,6070.00,6070.00,0.04475,0.04475,10929.00,10929.00,X,40,1.05,X,640000,125.106,X,X,X,X,X,X,X,X,X,X,X,X,X,X,X,X,X,X,X,249,47,19,12.6,
9.875,01/22/17 - 10:56,AEB_10,2.875,1.750,6070.00,6070.00,0.04475,0.04475,10929.00,10929.00,X,40,1.05,X,640000,125.106,X,01/22/17 - 10:56,17979,10197,5596,-203,1.9,105.2,6.000,8.66,9.1,19.5,202.7,1141221.3,0,X,X,X,X,X,X,X,X,
9.875,01/23/17 - 08:25,AEB_10,2.875,1.750,6070.00,6070.00,0.04475,0.04475,10929.00,10929.00,X,40,1.05,X,640000,125.106,X,01/23/17 - 08:29,18319,8326,5458,-383,5.2,103.0,5.980,50.90,52.4,111.9,382.9,1162855.6,2,X,X,X,X,X,X,X,X,
9.875,01/29/17 - 14:59,AEB_10,2.875,1.750,6070.00,6070.00,0.04475,0.04475,10929.00,10929.00,X,40,1.05,X,640000,125.106,X,01/29/17 - 14:59,18297,8083,5709,-586,4.8,102.6,5.960,43.89,45.0,95.8,585.8,1160897.2,6,X,X,X,X,X,X,X,X,
9.875,02/16/17 - 09:28,AEB_10,2.875,1.750,6070.00,6070.00,0.04475,0.04475,10929.00,10929.00,X,40,1.05,X,640000,125.106,X,02/16/17 - 09:30,18260,9856,5388,-403,1.6,103.9,6.020,7.63,7.9,17.0,403.4,1156532.3,0,X,X,X,X,X,X,X,X,
9.875,02/17/17 - 09:16,AEB_10,2.875,1.750,6070.00,6070.00,0.04475,0.04475,10929.00,10929.00,X,40,1.05,X,640000,125.106,X,02/17/17 - 09:16,18310,8476,5448,-660,4.3,103.3,5.980,38.09,39.3,84.0,660.1,1162263.6,6,X,X,X,X,X,X,X,X,
9.875,02/20/17 - 16:56,AEB_10,2.875,1.750,6070.00,6070.00,0.04475,0.04475,10929.00,10929.00,X,40,1.05,X,640000,125.106,X,02/20/17 - 16:56,19292,8634,6269,-556,4.8,100.1,5.980,35.88,35.9,76.7,556.0,1223656.1,4,X,X,X,X,X,X,X,X,
9.875,05/11/17 - 15:29,AEB_10,2.875,1.750,6070.00,6070.00,0.04475,0.04475,10929.00,10929.00,X,40,1.05,X,640000,125.106,X,05/11/17 - 15:29,18233,8956,5403,-501,3.7,109.1,5.941,27.65,30.2,64.0,501.1,1155991.5,0,X,X,X,X,X,X,X,X,
9.875,05/28/17 - 11:42,AEB_10,2.875,1.750,6070.00,6070.00,0.04475,0.04475,10929.00,10929.00,X,40,1.05,X,640000,125.106,X,X,X,X,X,X,X,X,X,X,X,X,X,X,X,X,X,X,X,X,X,100,3.3,
9.875,05/28/17 - 17:16,AEB_10,2.875,1.750,6070.00,6070.00,0.04475,0.04475,10929.00,10929.00,X,40,1.05,X,640000,125.106,X,05/28/17 - 17:16,19437,8275,6751,-156,10.1,103.6,5.921,88.57,91.7,193.9,155.9,1233081.0,4,X,X,X,X,X,X,X,X,
9.875,07/17/17 - 08:55,AEB_10,2.875,1.750,6070.00,6070.00,0.04475,0.04475,10929.00,10929.00,X,40,1.05,X,640000,125.106,X,07/17/17 - 08:55,17602,9943,4998,-463,1.9,106.0,5.960,9.04,9.6,20.4,463.0,1114359.3,0,X,X,X,X,X,X,X,X,
9.875,07/25/17 - 11:20,AEB_10,2.875,1.750,6070.00,6070.00,0.04475,0.04475,10929.00,10929.00,X,40,1.05,X,640000,125.106,X,07/25/17 - 11:20,17114,9662,4922,-283,1.7,109.8,5.960,17.50,19.2,40.9,283.3,1085665.4,1,X,X,X,X,X,X,X,X,
9.875,10/17/17 - 11:19,AEB_10,2.875,1.750,6070.00,6070.00,0.04475,0.04475,10929.00,10929.00,X,40,1.05,X,640000,125.106,X,10/17/17 - 11:19,18772,8845,5905,-542,3.3,105.3,5.941,27.56,29.0,61.6,542.4,1190891.6,3,X,X,X,X,X,X,X,X,
9.875,10/18/17 - 08:50,AEB_10,2.875,1.750,6070.00,6070.00,0.04475,0.04475,10929.00,10929.00,X,40,1.05,X,640000,125.106,X,10/18/17 - 08:50,18901,8905,6187,-478,3.2,105.8,5.960,23.21,24.6,52.3,477.8,1199092.2,6,X,X,X,X,X,X,X,X,
9.875,12/09/17 - 09:53,AEB_10,2.875,1.750,6070.00,6070.00,0.04475,0.04475,10929.00,10929.00,X,40,1.05,X,640000,125.106,X,12/09/17 - 09:53,18332,9934,5491,-396,1.6,103.2,5.902,6.43,6.6,14.0,396.1,1160458.4,0,X,X,X,X,X,X,X,X,
9.875,06/29/18 - 15:44,AEB_10,2.875,1.750,6070.00,6070.00,0.04475,0.04475,10929.00,10929.00,X,40,1.05,X,640000,125.106,X,06/29/18 - 15:44,16426,8019,2811,-353,7.8,119.1,7.407,96.71,115.2,304.6,353.3,988954.9,0,X,X,X,X,X,X,X,X,
9.875,06/30/18 - 12:01,AEB_10,2.875,1.750,6070.00,6070.00,0.04475,0.04475,10929.00,10929.00,X,40,1.05,X,640000,125.106,X,06/30/18 - 12:01,17967,9603,4823,-1293,4.2,113.8,7.438,16.89,19.2,51.1,1293.0,1139930.3,0,X,X,X,X,X,X,X,X,
9.875,07/03/18 - 10:23,AEB_10,2.875,1.750,6070.00,6070.00,0.04475,0.04475,10929.00,10929.00,X,40,1.05,X,640000,125.106,X,07/03/18 - 10:23,16565,10566,4278,-452,4.0,119.1,7.407,15.99,19.0,50.4,451.5,1049006.6,5,X,X,X,X,X,X,X,X,
9.625,05/10/14 - 18:53,AEB_4,3.500,2.250,3500.00,3500.00,0.035,0.035,9000.00,9000.00,X,40,1.05,X,640000,107.234,X,05/10/14 - 18:53,16936,6503,6143,-7,12.8,104.4,8.612,81.10,84.7,430.5,6.7,816996.9,6,X,X,X,X,X,X,X,X,
9.625,05/12/14 - 10:32,AEB_4,3.500,2.250,3500.00,3500.00,0.035,0.035,10932.00,10932.00,X,40,1.05,X,640000,107.234,X,X,X,X,X,X,X,X,X,X,X,X,X,X,X,X,X,X,X,368,368,100,113.7,
9.625,05/13/14 - 10:02,AEB_4,3.500,2.250,3500.00,3500.00,0.035,0.035,10932.00,10932.00,X,40,1.05,X,640000,107.234,X,X,X,X,X,X,X,X,X,X,X,X,X,X,X,X,X,X,X,1118,1118,100,371.5,
9.625,05/13/14 - 17:10,AEB_4,3.500,2.250,3500.00,3500.00,0.035,0.035,10932.00,10932.00,X,40,1.05,X,640000,107.234,X,X,X,X,X,X,X,X,X,X,X,X,X,X,X,X,X,X,X,1133,1133,100,376.5,
9.625,05/17/14 - 18:00,AEB_4,3.500,2.250,3500.00,3500.00,0.035,0.035,10932.00,10932.00,X,40,1.05,X,640000,77.370,X,05/17/14 - 18:00,10438,6444,2489,-658,2.0,75.1,7.115,95.03,71.3,299.6,657.7,432866.7,5,X,X,X,X,X,X,X,X,
9.625,05/23/14 - 09:54,AEB_4,3.500,2.250,3500.00,3500.00,0.035,0.035,10932.00,10932.00,X,40,1.05,X,640000,77.370,X,X,X,X,X,X,X,X,X,X,X,X,X,X,X,X,X,X,X,1020,1020,100,345.3,
9.625,06/16/14 - 10:32,AEB_4,3.500,2.250,3500.00,3500.00,0.035,0.035,10932.00,10932.00,X,40,1.05,X,640000,77.370,X,X,X,X,X,X,X,X,X,X,X,X,X,X,X,X,X,X,X,180,34,19,16.7,
9.625,06/16/14 - 18:40,AEB_4,3.500,2.250,3500.00,3500.00,0.035,0.035,10932.00,10932.00,X,40,1.05,X,640000,77.370,X,X,X,X,X,X,X,X,X,X,X,X,X,X,X,X,X,X,X,638,478,75,151.8,
9.625,06/18/14 - 15:54,AEB_4,3.500,2.250,3500.00,3500.00,0.035,0.035,10932.00,10932.00,X,40,1.05,X,640000,77.370,X,X,X,X,X,X,X,X,X,X,X,X,X,X,X,X,X,X,X,935,709,76,231.8,
9.625,07/02/14 - 11:56,AEB_4,3.500,2.250,3500.00,3500.00,0.035,0.035,10932.00,10932.00,X,40,1.05,X,640000,77.370,X,X,X,X,X,X,X,X,X,X,X,X,X,X,X,X,X,X,X,824,623,76,363.1,
9.625,04/20/15 - 09:12,AEB_4,3.500,2.250,3500.00,3500.00,0.035,0.035,10932.00,10932.00,X,40,1.05,X,640000,123.167,X,04/20/15 - 09:20,14223,5815,4183,-993,9.2,117.1,8.333,100.00,117.1,575.8,993.4,815546.1,0,X,X,X,X,X,X,100,X,
9.625,10/06/15 - 15:12,AEB_4,3.500,2.250,3500.00,3500.00,0.035,0.035,10932.00,10932.00,X,40,1.05,X,640000,123.167,X,X,X,X,X,X,X,X,X,X,X,X,X,X,X,X,X,X,X,1386,1386,100,483.1,
9.625,02/11/16 - 11:27,AEB_4,3.500,2.250,4208.00,4208.00,0.035,0.035,10932.00,10932.00,X,40,1.05,X,640000,123.167,X,X,X,X,X,X,X,X,X,X,X,X,X,X,X,X,X,X,X,1865,1865,100,732.8,
9.625,02/13/16 - 16:59,AEB_4,3.500,2.250,4208.00,4208.00,0.035,0.035,10932.00,10932.00,35.0,40,1.05,X,640000,123.167,X,X,X,X,X,X,X,X,X,X,X,X,X,X,X,X,X,X,X,2505,2505,100,874.8,
9.625,02/22/16 - 14:25,AEB_4,3.500,2.250,4208.00,4208.00,0.035,0.035,10932.00,10932.00,35.0,40,1.05,X,640000,123.167,X,02/22/16 - 14:25,21283,6404,8017,-123,20.4,118.5,8.295,98.88,117.2,574.0,123.0,1198660.6,6,X,X,X,X,X,X,X,X,
9.625,02/24/16 - 09:42,AEB_4,3.500,2.250,4208.00,4208.00,0.035,0.035,10932.00,10932.00,35.0,40,1.05,X,640000,123.167,X,X,X,X,X,X,X,X,X,X,X,X,X,X,X,X,X,X,X,1861,1861,100,731.7,
9.625,05/21/16 - 10:37,AEB_4,3.500,2.250,4208.00,4208.00,0.035,0.035,10932.00,10932.00,35.0,40,1.05,X,640000,123.167,X,X,X,X,X,X,X,X,X,X,X,X,X,X,X,X,X,X,X,1955,1955,100,755.6,
9.625,07/31/16 - 14:15,AEB_4,3.500,2.250,4208.00,4208.00,0.035,0.035,10932.00,10932.00,35.0,40,1.05,X,640000,123.167,X,07/31/16 - 14:16,18100,6819,6126,-38,15.3,115.3,8.333,96.60,111.4,547.9,38.5,1067312.7,0,X,X,X,X,X,X,X,X,
9.625,08/12/16 - 11:21,AEB_4,3.500,2.250,4208.00,4208.00,0.035,0.035,10932.00,10932.00,35.0,40,1.05,X,640000,123.167,X,08/12/16 - 11:21,17319,5068,4601,-931,13.4,116.4,8.333,94.38,109.8,540.2,931.1,997266.1,6,15621,9262,9895,7752,X,X,X,X,
9.625,09/16/16 - 09:03,AEB_4,3.500,2.250,4208.00,4208.00,0.035,0.035,10932.00,10932.00,35.0,40,1.05,X,640000,123.167,X,09/16/16 - 09:03,12415,7388,1234,-644,4.8,128.9,8.372,100.00,128.9,636.8,644.0,705342.4,1,X,X,X,X,X,X,X,X,
9.625,01/22/17 - 15:28,AEB_4,3.500,2.250,4200.00,4200.00,0.035,0.035,10932.00,10932.00,35.0,40,1.05,X,640000,123.167,X,01/22/17 - 15:28,19149,6476,6656,-71,16.5,113.7,8.295,86.54,98.4,481.8,71.2,1146915.6,4,X,X,X,X,X,X,X,X,
9.625,05/13/17 - 10:09,AEB_4,3.500,2.250,4200.00,4200.00,0.035,0.035,10932.00,10932.00,35.0,40,1.05,X,640000,123.167,X,05/13/17 - 10:09,16768,7108,4959,-35,12.2,122.3,8.257,98.07,120.0,584.8,34.9,924414.0,0,X,X,X,X,X,X,X,X,
9.625,05/14/17 - 21:53,AEB_4,3.500,2.250,4200.00,4200.00,0.035,0.035,10932.00,10932.00,35.0,40,1.05,X,640000,123.167,X,05/14/17 - 21:53,20259,6902,8636,-0,20.1,118.2,8.182,99.01,117.0,565.3,0.0,1194913.9,9,X,X,X,X,X,X,X,X,
9.625,10/10/17 - 15:17,AEB_4,3.500,2.250,4200.00,4200.00,0.035,0.035,10932.00,10932.00,35.0,40,1.05,X,640000,123.167,X,10/10/17 - 15:17,17647,6396,5237,-107,13.8,115.8,8.295,95.33,110.4,540.4,106.9,1010458.2,6,X,X,X,X,X,X,X,X,
9.625,11/20/17 - 10:06,AEB_4,3.500,2.250,4200.00,4200.00,0.035,0.035,10932.00,10932.00,35.0,40,1.05,X,640000,123.167,X,11/20/17 - 10:06,12609,7464,1242,-68,5.2,126.7,8.372,100.00,126.7,626.2,68.0,746849.9,5,X,X,X,X,X,X,X,X,
9.625,12/18/17 - 10:48,AEB_4,3.500,2.250,4200.00,4200.00,0.035,0.035,10932.00,10932.00,35.0,40,1.05,X,640000,123.167,X,12/18/17 - 10:52,18697,6680,5958,-326,15.5,114.6,8.295,96.13,110.2,539.5,326.2,1081039.4,5,X,X,X,X,X,X,X,X,
9.625,01/16/18 - 10:51,AEB_4,3.500,2.250,4200.00,4200.00,0.035,0.035,10932.00,10932.00,35.0,40,1.05,X,640000,123.167,X,01/16/18 - 10:51,17938,5664,5291,-411,14.0,115.5,8.451,95.16,109.9,548.3,410.8,1058565.5,15,X,X,X,X,X,X,X,X,
9.625,04/16/18 - 10:45,AEB_4,3.500,2.250,4200.00,4200.00,0.035,0.035,10932.00,10932.00,35.0,40,1.05,X,640000,123.167,X,04/16/18 - 10:45,17768,6807,5049,-693,13.6,115.0,8.257,95.85,110.2,537.1,693.0,1028478.7,6,X,X,X,X,X,X,X,X,
El-Hamra\AEB-3c#5x.002,04/10/15 - 09:05,AEB-3c_5x,3.500,2.000,5400.00,5400.00,0.052,0.052,8300.00,8300.00,X,36.2,1.1,X,640000,109.072,50,04/10/15 - 09:05,13213,11090,1230,-460,1.4,107.2,5.960,48.08,51.5,143.2,460.2,288705.2,4,X,X,X,X,X,X,X,X,
El-Hamra\AEB-3c#5x.004,04/16/15 - 09:26,AEB-3c_5x,3.500,2.000,5400.00,5400.00,0.052,0.052,8300.00,8300.00,X,36.2,1.1,X,640000,107.234,50,04/16/15 - 09:26,21845,8668,8709,-467,8.3,89.4,5.960,63.80,57.0,158.5,467.2,500309.4,6,X,X,X,X,X,X,X,X,
El-Hamra\AEB-3c#5x.006,04/16/15 - 15:46,AEB-3c_5x,3.500,2.000,5400.00,5400.00,0.052,0.052,8300.00,8300.00,X,36.2,1.1,X,640000,107.234,50,X,X,X,X,X,X,X,X,X,X,X,X,X,X,X,X,X,X,339,282,83,84.7,
El-Hamra\AEB-3c#5x.008,04/17/15 - 08:48,AEB-3c_5x,3.500,2.000,5400.00,5400.00,0.052,0.052,8300.00,8300.00,X,36.2,1.1,X,640000,107.234,50,04/17/15 - 08:56,22110,9417,8497,-400,8.8,87.2,5.941,74.18,64.6,179.1,400.2,470771.6,6,X,X,X,X,X,X,90,32.1,
El-Hamra\AEB-3c#5x.010,04/18/15 - 17:36,AEB-3c_5x,3.500,2.000,5400.00,5400.00,0.052,0.052,8300.00,8300.00,X,36.2,1.1,X,640000,107.234,50,X,X,X,X,X,X,X,X,X,X,X,X,X,X,X,X,X,X,678,566,83,190.4,
El-Hamra\AEB-3c#5x.012,04/19/15 - 08:50,AEB-3c_5x,3.500,2.000,5400.00,5400.00,0.052,0.052,8300.00,8300.00,X,36.2,1.1,X,640000,107.234,50,X,X,X,X,X,X,X,X,X,X,X,X,X,X,X,X,X,X,10,9,90,-1.$,
El-Hamra\AEB-3c#5x.014,04/21/15 - 09:09,AEB-3c_5x,3.500,2.000,5400.00,5400.00,0.052,0.052,8300.00,8300.00,X,36.2,1.1,X,640000,107.234,50,X,X,X,X,X,X,X,X,X,X,X,X,X,X,X,X,X,X,X,X,100,59.6,
El-Hamra\AEB-3c#5x.016,04/22/15 - 18:10,AEB-3c_5x,3.500,2.000,5400.00,5400.00,0.052,0.052,8300.00,8300.00,X,36.2,1.1,X,640000,107.234,50,X,X,X,X,X,X,X,X,X,X,X,X,X,X,X,X,X,X,627,253,40,143.0,
El-Hamra\AEB-3c#5x.018,04/24/15 - 18:29,AEB-3c_5x,3.500,2.000,5400.00,5400.00,0.052,0.052,8300.00,8300.00,X,36.2,1.1,X,640000,107.234,50,X,X,X,X,X,X,X,X,X,X,X,X,X,X,X,X,X,X,671,270,40,148.8,
El-Hamra\AEB-3c#5x.020,04/26/15 - 09:48,AEB-3c_5x,3.500,2.000,5400.00,5400.00,0.052,0.052,8300.00,8300.00,X,36.2,1.1,X,640000,107.234,50,X,X,X,X,X,X,X,X,X,X,X,X,X,X,X,X,X,X,X,X,19,-0.0,
El-Hamra\AEB-3c#5x.022,04/27/15 - 08:37,AEB-3c_5x,3.500,2.000,5400.00,5400.00,0.052,0.052,8300.00,8300.00,X,36.2,1.1,X,640000,107.234,50,X,X,X,X,X,X,X,X,X,X,X,X,X,X,X,X,X,X,773,773,100,308.4,
El-Hamra\AEB-3c#5x.024,05/08/15 - 09:53,AEB-3c_5x,3.500,2.250,5400.00,5400.00,0.052,0.052,8300.00,8300.00,X,36.2,1.1,X,640000,107.234,50,05/08/15 - 10:01,21309,9512,7896,-1025,10.1,86.9,5.980,89.92,78.1,275.8,1024.8,514791.5,7,X,X,X,X,1127,1127,100,447.3,
El-Hamra\AEB-3c#5x.026,05/19/15 - 09:12,AEB-3c_5x,3.500,2.000,5400.00,5400.00,0.052,0.052,8300.00,8300.00,X,36.2,1.1,X,640000,107.234,50,X,X,X,X,X,X,X,X,X,X,X,X,X,X,X,X,X,X,550,533,97,242.3,
El-Hamra\AEB-3c#5x.028,05/19/15 - 17:02,AEB-3c_5x,3.500,2.000,5400.00,5400.00,0.052,0.052,8300.00,8300.00,X,36.2,1.1,X,640000,107.234,50,X,X,X,X,X,X,X,X,X,X,X,X,X,X,X,X,X,X,X,X,96,57.4,
El-Hamra\AEB-3c#5x.030,08/28/15 - 11:09,AEB-3c_5x,3.500,2.250,5450.00,5450.00,0.052,0.052,8300.00,8300.00,X,36.2,1.1,X,640000,107.234,50,08/28/15 - 11:22,14528,10280,703,-537,2.1,108.2,5.980,100.00,108.2,382.0,536.9,449140.3,8,X,X,X,X,1271,1237,97,480.6,
El-Hamra\AEB-3c#5x.032,10/20/15 - 09:48,AEB-3c_5x,3.500,2.250,5450.00,5450.00,0.052,0.052,8300.00,8300.00,X,36.2,1.1,X,640000,56.242,50,10/20/15 - 09:52,13189,11595,894,-662,0.9,54.1,7.115,42.36,22.9,96.3,661.6,514777.6,0,X,X,X,X,X,X,X,X,
El-Hamra\AEB-3c#5x.034,01/15/16 - 09:23,AEB-3c_5x,3.500,2.250,5530.00,5530.00,0.052,0.052,8300.00,8300.00,X,36.2,1.1,X,320000,100.000,50,01/15/16 - 09:23,14383,10564,803,-433,2.3,101.6,6.522,100.00,101.6,391.2,433.0,518156.7,31,X,X,X,X,X,X,X,X,
El-Hamra\AEB-3c#5x.036,02/24/16 - 10:03,AEB-3c_5x,3.500,2.250,5530.00,5530.00,0.052,0.052,8300.00,8300.00,40.0,36.2,1.1,X,320000,100.000,50,X,X,X,X,X,X,X,X,X,X,X,X,X,X,X,X,X,X,3303,688,21,892.9,
El-Hamra\AEB-3c#5x.038,08/10/16 - 18:10,AEB-3c_5x,3.500,2.250,5530.00,5530.00,0.052,0.052,8300.00,8300.00,40.0,36.2,1.1,X,320000,84.089,50,08/10/16 - 18:10,14607,10274,1194,-842,2.9,81.1,8.867,29.81,24.2,126.6,842.5,582364.3,7,X,X,X,X,X,X,X,X,
El-Hamra\AEB-3c#5x.040,11/01/16 - 10:07,AEB-3c_5x,3.500,2.250,5530.00,5530.00,0.052,0.052,8300.00,8300.00,40.0,36.2,1.1,X,320000,84.089,50,11/01/16 - 10:07,16658,8930,1985,-836,3.4,92.7,8.824,92.50,85.7,446.4,836.5,603816.9,0,X,X,X,X,X,X,X,X,
El-Hamra\AEB-3c#5x.042,08/07/17 - 08:50,AEB-3c_5x,3.500,2.250,5530.00,5530.00,0.052,0.052,8300.00,8300.00,40.0,36.2,1.1,X,320000,84.089,50,08/07/17 - 08:50,14646,9565,569,-604,2.6,86.9,8.738,100.00,86.9,448.3,603.8,604838.9,0,16044,12025,14485,10163,X,X,X,X,
El-Hamra\AEB-3c#5x.044,10/24/17 - 20:17,AEB-3c_5x,3.500,2.250,5530.00,5530.00,0.052,0.052,8300.00,8300.00,40.0,36.2,1.1,X,320000,84.089,50,10/24/17 - 20:17,15213,9614,1412,-409,3.3,87.0,8.738,100.00,87.0,448.5,409.4,598725.4,0,12401,12025,11782,10163,X,X,X,X,
El-Hamra\AEB-3c#5x.046,10/27/17 - 10:18,AEB-3c_5x,3.500,2.250,5530.00,5530.00,0.052,0.052,8300.00,8300.00,40.0,36.2,1.1,X,320000,84.089,50,X,X,X,X,X,X,X,X,X,X,X,X,X,X,X,X,X,X,4546,4546,100,18374.9,
El-Hamra\AEB-3c#5x.048,11/30/17 - 16:55,AEB-3c_5x,3.500,2.250,3150.00,3150.00,0.052,0.052,8300.00,8300.00,40.0,36.2,1.1,X,320000,84.089,50,11/30/17 - 16:55,10192,4904,1473,-718,2.7,87.8,8.738,100.00,87.8,452.6,717.8,822970.2,6,X,X,X,X,X,X,X,X,
El-Hamra\AEB-3C-1X.001,07/30/14 - 09:39,AEB-3C-1X,3.500,2.500,3780.00,3780.00,0.0378,0.0378,10646.00,10646.00,X,40,1.05,X,456000,144.000,50,07/30/14 - 09:39,8977,5202,1094,-358,2.7,149.5,6.923,100.00,149.5,754.5,357.5,551142.9,3,X,X,X,X,X,X,X,X,
El-Hamra\AEB-3C-1X.003,07/10/15 - 14:55,AEB-3C-1X,3.500,2.500,3780.00,3780.00,0.0378,0.0378,10646.00,10646.00,X,40,1.05,X,456000,144.000,50,07/10/15 - 14:55,9519,5164,1558,-441,2.6,151.6,7.115,100.00,151.6,786.1,441.1,573158.2,0,X,X,X,X,X,X,X,X,
El-Hamra\AEB-3C-1X.005,09/10/15 - 17:16,AEB-3C-1X,3.500,2.500,3780.00,3780.00,0.0378,0.0378,10646.00,10646.00,X,40,1.05,X,456000,144.000,50,09/10/15 - 17:16,8814,5049,747,-624,2.8,142.2,6.977,99.38,141.3,718.5,624.2,623645.4,7,X,X,X,X,X,X,X,X,
El-Hamra\AEB-3C-1X.007,12/05/15 - 09:42,AEB-3C-1X,3.500,2.500,3780.00,3780.00,0.0378,0.0378,10646.00,10646.00,X,40,1.05,X,456000,144.000,50,12/05/15 - 09:42,8102,5609,962,-153,3.9,144.6,7.004,91.90,132.9,678.2,152.7,592502.9,5,X,X,X,X,X,X,X,X,
El-Hamra\AEB-3C-1X.009,02/13/16 - 10:28,AEB-3C-1X,3.500,2.500,3780.00,3780.00,0.0378,0.0378,10646.00,10646.00,X,40,1.05,X,456000,144.000,50,02/13/16 - 10:28,12308,3645,3859,-1586,10.2,131.5,6.897,98.82,129.9,653.0,1586.2,846397.9,3,X,X,X,X,2651,2651,100,892.1,
El-Hamra\AEB-3C-1X.011,03/07/16 - 09:20,AEB-3C-1X,3.500,2.500,3780.00,3780.00,0.0378,0.0378,10646.00,10646.00,X,40,1.05,X,456000,144.000,50,X,X,X,X,X,X,X,X,X,X,X,X,X,X,X,X,X,X,2589,2589,100,868.9,
El-Hamra\AEB-3C-1X.013,07/13/16 - 17:18,AEB-3C-1X,3.500,2.500,3780.00,3780.00,0.0378,0.0378,10646.00,10646.00,X,40,1.05,X,456000,144.000,50,07/13/16 - 17:18,11655,4258,2692,-259,6.7,145.3,6.897,99.14,144.1,724.1,258.5,755107.2,6,X,X,X,X,X,X,X,X,
El-Hamra\AEB-3C-1X.015,11/18/16 - 10:07,AEB-3C-1X,3.500,2.500,3750.00,3750.00,0.0378,0.0378,10646.00,10646.00,X,40,1.05,X,456000,144.000,50,11/18/16 - 10:10,15030,5336,5340,-2603,13.3,130.4,7.004,95.23,124.1,633.7,2603.0,1066461.8,8,X,X,X,X,X,X,X,X,
El-Hamra\AEB-3C-1X.017,03/04/17 - 09:47,AEB-3C-1X,3.500,2.500,3750.00,3750.00,0.0378,0.0378,10646.00,10646.00,X,40,1.05,X,456000,144.000,50,03/04/17 - 09:47,15074,5423,5231,-1749,13.7,133.5,7.004,96.79,129.2,659.7,1748.8,1066168.0,1,X,X,X,X,X,X,X,X,
El-Hamra\AEB-3C-1X.019,08/13/17 - 10:17,AEB-3C-1X,3.500,2.500,3750.00,3750.00,0.0378,0.0378,10646.00,10646.00,X,40,1.05,X,456000,144.000,50,08/13/17 - 10:17,14855,5939,5341,-201,13.8,140.6,7.004,99.51,139.9,714.0,201.2,1083633.2,4,X,X,X,X,X,X,X,X,
El-Hamra\AEB-3C-1X.021,10/31/17 - 10:25,AEB-3C-1X,3.500,2.500,3837.00,3837.00,0.0378,0.0378,10646.00,10646.00,X,40,1.05,X,456000,144.000,50,10/31/17 - 10:25,17503,5330,7282,-260,17.8,138.0,6.977,99.61,137.4,698.8,260.3,1234583.1,0,X,X,X,X,X,X,X,X,
El-Hamra\AEB-3C-1X.023,05/05/18 - 16:43,AEB-3C-1X,3.500,2.500,3837.00,3837.00,0.0378,0.0378,10646.00,10646.00,X,40,1.05,X,456000,144.000,50,05/05/18 - 16:43,15049,5336,5169,-2023,13.4,134.1,7.031,98.65,132.3,677.9,2022.7,1076750.9,6,10402,8449,8760,8570,X,X,X,X,
El-Hamra\AEB-3C-2X.002,02/13/16 - 10:49,AEB-3C-2X,3.500,2.750,3975.00,3975.00,0.04119,0.04119,10696.00,10696.00,35.0,40,1.05,X,640000,144.000,50,02/13/16 - 10:49,17728,6049,5994,-31,16.3,139.9,7.438,94.23,131.8,864.7,30.9,1210836.0,4,X,X,X,X,2645,2645,100,884.8,
El-Hamra\AEB-3C-2X.004,03/07/16 - 09:39,AEB-3C-2X,3.500,2.750,3975.00,3975.00,0.04119,0.04119,10696.00,10696.00,35.0,40,1.05,X,640000,144.000,50,X,X,X,X,X,X,X,X,X,X,X,X,X,X,X,X,X,X,2785,2785,100,930.0,
El-Hamra\AEB-3C-2X.006,04/02/16 - 14:11,AEB-3C-2X,3.500,2.750,3975.00,3975.00,0.04119,0.04119,10696.00,10696.00,35.0,40,1.05,X,640000,129.499,50,X,X,X,X,X,X,X,X,X,X,X,X,X,X,X,X,X,X,2894,2894,100,965.1,
El-Hamra\AEB-3C-2X.008,04/03/16 - 11:34,AEB-3C-2X,3.500,2.750,3975.00,3975.00,0.04119,0.04119,10696.00,10696.00,35.0,40,1.05,X,640000,129.499,50,04/03/16 - 11:35,16738,6813,5448,0,12.1,130.1,7.377,93.01,121.0,787.2,0.0,940256.1,2,9617,9012,7810,10950,X,X,X,X,
El-Hamra\AEB-3C-2X.010,08/07/16 - 10:41,AEB-3C-2X,3.500,2.750,3975.00,3975.00,0.04119,0.04119,10696.00,10696.00,35.0,40,1.05,X,640000,143.034,50,08/07/16 - 10:41,16434,6688,4539,-350,13.0,139.3,7.377,96.71,134.7,876.1,349.9,1080050.9,0,6028,9012,4710,10950,X,X,X,X,
El-Hamra\AEB-3C-2X.012,08/11/16 - 12:09,AEB-3C-2X,3.500,2.750,3975.00,3975.00,0.04119,0.04119,10696.00,10696.00,35.0,40,1.05,X,640000,143.034,50,08/11/16 - 12:09,15673,5838,3851,-100,11.5,138.2,7.407,96.76,133.7,873.2,100.0,1024408.4,0,X,X,X,X,X,X,X,X,
El-Hamra\AEB-3C-2X.014,10/04/16 - 08:24,AEB-3C-2X,3.500,2.500,3850.00,3850.00,0.04119,0.04119,10696.00,10696.00,35.0,40,1.05,X,640000,143.034,50,10/04/16 - 08:24,12190,6586,1549,-470,5.0,148.5,7.438,100.00,148.5,805.1,470.1,790397.2,6,11567,8698,9657,8771,X,X,X,X,
El-Hamra\AEB-3C-2X.016,03/05/17 - 13:20,AEB-3C-2X,3.500,2.500,3850.00,3850.00,0.04119,0.04119,10696.00,10696.00,35.0,40,1.05,X,640000,123.516,50,03/05/17 - 13:20,15053,6577,4047,-773,10.5,120.1,7.377,99.25,119.2,640.7,773.1,892162.9,5,X,X,X,X,X,X,X,X,
El-Hamra\AEB-3C-2X.018,03/07/17 - 18:01,AEB-3C-2X,3.500,2.500,3850.00,3850.00,0.04119,0.04119,10696.00,10696.00,35.0,40,1.05,X,640000,128.701,50,03/07/17 - 18:03,13291,6453,2657,-1648,7.8,120.9,7.347,95.21,115.1,616.2,1648.4,764200.8,9,X,X,X,X,X,X,X,X,
El-Hamra\AEB-3C-2X.020,05/12/17 - 13:29,AEB-3C-2X,3.500,2.500,3850.00,3850.00,0.04119,0.04119,10696.00,10696.00,35.0,40,1.05,X,640000,128.701,50,05/12/17 - 13:29,15035,6029,3877,-440,10.2,122.7,7.317,92.72,113.7,606.5,439.6,873796.5,6,X,X,X,X,X,X,X,X,
El-Hamra\AEB-3C-2X.022,07/03/17 - 14:54,AEB-3C-2X,3.500,2.500,3850.00,3850.00,0.04119,0.04119,10696.00,10696.00,35.0,40,1.05,X,640000,128.701,50,07/03/17 - 14:54,13774,6315,2985,-1359,8.9,120.8,7.317,92.41,111.7,595.4,1359.2,799272.7,9,X,X,X,X,X,X,X,X,
El-Hamra\AEB-3C-2X.024,09/25/17 - 12:04,AEB-3C-2X,3.500,2.500,3850.00,3850.00,0.04119,0.04119,10696.00,10696.00,35.0,40,1.05,X,640000,128.701,50,09/25/17 - 12:04,13166,7222,2223,-93,5.8,134.3,8.491,99.96,134.3,830.7,93.1,715450.6,0,X,X,X,X,X,X,X,X,
El-Hamra\AEB-3C-2X.026,09/30/17 - 20:56,AEB-3C-2X,3.500,2.500,3850.00,3850.00,0.04119,0.04119,10696.00,10696.00,35.0,40,1.05,X,640000,128.701,50,09/30/17 - 20:57,10708,7996,1141,-830,2.6,127.6,8.491,11.63,14.8,91.8,829.5,666065.5,0,9449,8698,9055,8771,X,X,X,X,
El-Hamra\AEB-3C-2X.028,01/22/18 - 09:57,AEB-3C-2X,3.500,2.500,3750.00,3750.00,0.04119,0.04119,10696.00,10696.00,35.0,40,1.05,X,640000,128.701,50,01/22/18 - 09:57,20258,4514,8567,-332,20.9,127.9,8.333,97.23,124.3,755.1,332.4,1194035.2,0,X,X,X,X,X,X,X,X,
El-Hamra\AEB-3C-2X.030,05/17/18 - 10:00,AEB-3C-2X,3.500,2.500,3750.00,3750.00,0.04119,0.04119,10696.00,10696.00,35.0,40,1.05,X,640000,128.701,50,05/17/18 - 10:00,10565,6409,280,-1014,3.4,130.5,8.372,100.00,130.5,796.2,1014.2,647192.9,0,X,X,X,X,X,X,X,X,
El-Hamra\AEB-3C-2X.032,05/19/18 - 09:55,AEB-3C-2X,3.500,2.500,3750.00,3750.00,0.04119,0.04119,10696.00,10696.00,35.0,40,1.05,X,640000,128.701,50,05/19/18 - 09:55,19021,6213,7069,-791,18.4,120.0,8.295,97.35,116.9,706.5,791.1,1060125.4,8,X,X,X,X,X,X,X,X,
El-Hamra\AEB-3C-3X.002,06/16/15 - 15:41,AEB-3C-3X,3.500,2.500,4500.00,4500.00,0.045,0.045,10656.00,10656.00,X,40,1.05,X,456000,126.661,50,X,X,X,X,X,X,X,X,X,X,X,X,X,X,X,X,X,X,3074,575,19,316.7,
El-Hamra\AEB-3C-3X.004,01/06/16 - 17:08,AEB-3C-3X,3.500,2.500,4500.00,4500.00,0.045,0.045,10656.00,10656.00,X,40,1.05,X,640000,125.106,50,01/06/16 - 17:08,15048,8000,2990,-401,6.4,118.3,5.902,95.93,113.5,488.3,400.8,861336.0,4,X,X,X,X,X,X,X,X,
El-Hamra\AEB-3C-3X.006,02/09/16 - 16:55,AEB-3C-3X,3.500,2.500,4500.00,4500.00,0.045,0.045,10656.00,10656.00,X,40,1.05,X,640000,125.106,50,X,X,X,X,X,X,X,X,X,X,X,X,X,X,X,X,X,X,3759,3759,100,1330.6,
El-Hamra\AEB-3C-3X.008,02/13/16 - 10:00,AEB-3C-3X,3.500,2.500,4500.00,4500.00,0.045,0.045,10656.00,10656.00,X,40,1.05,X,640000,125.106,50,02/13/16 - 10:00,15842,8170,3730,-711,7.4,115.6,5.921,96.09,111.1,479.2,710.9,908000.8,8,X,X,X,X,2136,2136,100,878.5,
El-Hamra\AEB-3C-3X.010,03/07/16 - 09:30,AEB-3C-3X,3.500,2.500,4500.00,4500.00,0.045,0.045,10656.00,10656.00,X,40,1.05,X,640000,125.106,50,X,X,X,X,X,X,X,X,X,X,X,X,X,X,X,X,X,X,2993,2993,100,1163.4,
El-Hamra\AEB-3C-3X.012,08/11/16 - 11:21,AEB-3C-3X,3.500,2.500,4500.00,4500.00,0.045,0.045,10656.00,10656.00,X,40,1.05,X,640000,125.106,50,08/11/16 - 11:21,15485,8119,3448,-433,7.1,118.5,5.902,96.40,114.3,491.5,432.6,893739.7,0,11426,9998,7344,10051,3563,3563,100,1198.3,
El-Hamra\AEB-3C-3X.014,01/23/17 - 11:32,AEB-3C-3X,3.500,2.500,4500.00,4500.00,0.045,0.045,10656.00,10656.00,X,40,1.05,X,640000,125.106,50,01/23/17 - 11:32,15371,7638,3076,-886,6.2,117.6,5.863,95.74,112.6,481.1,885.5,874643.6,0,X,X,X,X,X,X,X,X,
El-Hamra\AEB-3C-3X.016,09/04/17 - 10:44,AEB-3C-3X,3.500,2.500,4500.00,4500.00,0.045,0.045,10656.00,10656.00,X,40,1.05,X,640000,125.106,50,09/04/17 - 10:44,12677,8530,1024,-434,2.2,128.7,5.788,100.00,128.7,542.8,433.8,717897.2,7,X,X,X,X,X,X,X,X,
El-Hamra\AEB-3C-3X.018,10/31/17 - 09:56,AEB-3C-3X,3.500,2.500,3375.00,3375.00,0.045,0.045,10656.00,10656.00,X,40,1.05,X,640000,140.443,50,10/31/17 - 09:56,14868,5603,5367,-40,10.4,135.4,5.696,98.05,132.7,551.0,40.2,1010876.1,3,X,X,X,X,X,X,X,X,
El-Hamra\AEB-3C-3X.020,01/02/18 - 14:24,AEB-3C-3X,3.500,2.500,3375.00,3375.00,0.045,0.045,10656.00,10656.00,X,40,1.05,X,640000,142.900,50,01/02/18 - 14:24,13913,5125,4367,-1494,10.2,133.5,5.732,98.82,131.9,551.0,1494.0,1017228.7,9,X,X,X,X,X,X,X,X,
El-Hamra\AEB-3C-3X.022,01/15/18 - 10:18,AEB-3C-3X,3.500,2.500,3375.00,3375.00,0.045,0.045,10656.00,10656.00,X,40,1.05,X,640000,146.553,50,01/15/18 - 10:18,15378,4872,5377,-622,12.2,137.2,5.788,98.07,134.6,567.7,622.3,1088620.5,0,X,X,X,X,X,X,X,X,
El-Hamra\AEB-3C-3X.024,01/15/18 - 10:25,AEB-3C-3X,3.500,2.500,3375.00,3375.00,0.045,0.045,10656.00,10656.00,X,40,1.05,X,640000,144.000,50,01/15/18 - 10:25,14899,5113,4789,-716,11.2,136.0,5.825,97.23,132.2,561.3,715.8,1043485.9,0,X,X,X,X,X,X,X,X,
El-Hamra\AEB-3C-3X.026,06/05/18 - 12:18,AEB-3C-3X,3.500,2.500,3375.00,3375.00,0.045,0.045,10656.00,10656.00,X,40,1.05,X,640000,144.000,50,06/05/18 - 12:18,15270,5987,5405,-81,9.9,142.8,5.538,93.67,133.7,539.7,80.8,998684.4,0,X,X,X,X,X,X,X,X,
El-Hamra\AEB-3C-3X.028,06/10/18 - 16:31,AEB-3C-3X,3.500,2.500,3375.00,3375.00,0.045,0.045,10656.00,10656.00,X,40,1.05,X,640000,144.000,50,06/10/18 - 16:32,15304,5287,5411,-260,9.8,142.8,5.678,X,139.7,577.9,260.2,1014986.6,0,12861,7621,11590,7538,X,X,X,X,
El-Hamra\AL##16.002,10/29/17 - 16:35,AL__16,2.875,1.750,5650.00,5650.00,0.05325,0.05325,X,X,X,40,1.05,X,228000,54.000,30,10/29/17 - 16:35,11364,10013,960,-703,0.5,50.6,7.115,19.94,10.1,25.6,702.7,307791.7,4,X,X,X,X,X,X,X,X,
9 5/8",12/23/09 - 17:33,AL_1-X D0L,3.500,3.250,3875.00,3875.00,0.05,0.05,8178.00,8178.00,X,40,1.05,X,456000,144.000,50,12/23/09 - 17:35,15102,3822,4832,-682,17.8,148.9,9.184,100.00,148.9,1684.0,682.0,965500.7,0,X,X,X,X,X,X,X,X,
7,04/14/16 - 17:55,AL_14,2.875,1.750,5585.00,5585.00,0.052875,0.052875,5810.00,5810.00,50.0,40,1.05,X,228000,74.000,X,04/14/16 - 17:58,14082,7791,2961,-74,4.2,70.8,7.143,99.60,70.5,179.9,73.6,517767.8,5,X,X,X,X,X,X,X,X,
7,04/29/16 - 16:44,AL_14,2.750,1.750,5585.00,5585.00,0.052875,0.052875,5825.00,5825.00,50.0,40,1.05,X,228000,74.000,X,04/29/16 - 16:44,15049,7822,4624,-197,5.1,63.5,6.977,94.28,59.9,149.2,197.0,581218.5,0,X,X,X,X,2709,2709,100,892.6,
7,05/23/16 - 15:22,AL_14,2.750,1.750,5585.00,5585.00,0.052875,0.052875,5825.00,5825.00,50.0,40,1.05,X,228000,74.000,X,05/23/16 - 15:22,14665,7693,4359,-166,4.2,63.2,6.593,89.53,56.6,133.3,166.1,553179.2,0,12502,9677,11353,6233,X,X,X,X,
7,10/03/16 - 09:02,AL_14,2.750,1.750,5585.00,5585.00,0.052875,0.052875,5825.00,5825.00,50.0,40,1.05,X,228000,74.000,X,10/03/16 - 09:02,15071,7725,4165,-227,4.5,62.6,7.031,89.06,55.7,139.9,226.6,581271.1,5,X,X,X,X,X,X,X,X,
7,11/13/16 - 10:37,AL_14,2.750,1.750,5575.00,5575.00,0.052875,0.052875,5825.00,5825.00,50.0,40,1.05,X,228000,74.000,X,11/13/16 - 10:37,15966,7933,4882,-882,5.0,57.4,6.977,87.97,50.5,125.9,881.9,612528.9,10,16068,9862,9734,6222,X,X,X,X,
7,05/13/17 - 10:16,AL_14,2.750,1.750,5575.00,5575.00,0.052875,0.052875,5825.00,5825.00,50.0,40,1.05,X,228000,74.000,X,05/13/17 - 10:16,16658,8145,4750,-209,6.6,81.7,8.257,100.00,81.7,240.8,209.4,555765.1,0,X,X,X,X,X,X,X,X,
El-Hamra\AL#16 MB.001,03/31/14 - 15:45,AL_16 MB,2.875,1.750,6000.00,6000.00,0.055,0.055,6106.00,6106.00,X,40,1.05,X,228000,74.000,30,03/31/14 - 15:48,12522,9657,1035,-321,2.4,74.3,9.375,70.61,52.5,175.7,321.0,450445.7,7,9473,10464,8602,6566,X,X,X,X,
El-Hamra\AL#16 MB.003,03/18/16 - 17:36,AL_16 MB,2.875,1.750,6000.00,6000.00,0.055,0.055,6106.00,6106.00,X,40,1.05,X,228000,55.865,30,03/18/16 - 17:36,15898,9076,4330,-497,3.0,40.1,7.200,87.41,35.0,90.0,496.8,424555.9,0,X,X,X,X,X,X,X,X,
El-Hamra\AL#16 MB.005,04/12/16 - 08:58,AL_16 MB,2.875,1.750,6000.00,6000.00,0.055,0.055,6106.00,6106.00,X,40,1.05,X,228000,55.865,30,04/12/16 - 08:58,16254,9398,4992,-793,3.1,35.6,7.317,87.65,31.2,81.4,792.6,420215.0,14,X,X,X,X,2741,513,19,178.5,
El-Hamra\AL#16 MB.007,05/11/16 - 11:20,AL_16 MB,2.875,1.750,5664.00,5664.00,0.055,0.055,6106.00,6106.00,X,40,1.05,X,228000,55.865,30,05/11/16 - 11:20,15447,8678,4595,-693,2.9,38.5,7.287,80.00,30.8,80.2,692.9,402904.3,0,X,X,X,X,X,X,X,X,
El-Hamra\AL#16 MB.009,06/12/16 - 15:49,AL_16 MB,2.875,1.750,6000.00,6000.00,0.055,0.055,6106.00,6106.00,X,40,1.05,X,228000,55.865,30,06/12/16 - 15:49,16119,8845,4834,-622,3.6,38.9,7.258,97.05,37.8,97.8,622.4,446461.5,0,X,X,X,X,X,X,X,X,
El-Hamra\AL#16 MB.011,11/16/16 - 10:17,AL_16 MB,2.875,1.750,5675.00,5675.00,0.055,0.055,6106.00,6106.00,X,40,1.05,X,228000,74.000,30,11/16/16 - 10:17,10964,9888,1062,-884,0.6,69.4,7.200,20.48,14.2,36.6,884.3,412712.0,5,X,X,X,X,X,X,X,X,
El-Hamra\AL#16 MB.013,12/15/16 - 16:50,AL_16 MB,2.875,1.750,5675.00,5675.00,0.055,0.055,6106.00,6106.00,X,40,1.05,X,228000,55.865,30,12/15/16 - 16:50,10786,9931,943,-690,0.2,51.6,7.171,19.73,10.2,26.1,690.2,293477.0,6,X,X,X,X,X,X,X,X,
El-Hamra\AL#16 MB.015,01/29/17 - 15:09,AL_16 MB,2.875,1.750,5650.00,5650.00,0.055,0.055,6106.00,6106.00,X,40,1.05,X,228000,55.865,30,01/29/17 - 15:09,14373,8487,3585,-1163,3.0,43.0,7.087,97.50,41.9,106.1,1162.9,394892.8,0,X,X,X,X,X,X,X,X,
El-Hamra\AL#16 MB.017,02/14/17 - 11:49,AL_16 MB,2.875,1.750,5650.00,5650.00,0.055,0.055,6106.00,6106.00,X,40,1.05,X,228000,55.865,30,02/14/17 - 11:49,10781,9680,97,-396,0.2,57.3,7.171,100.00,57.3,146.8,396.2,283900.7,0,X,X,X,X,X,X,X,X,
El-Hamra\AL#16 MB.019,03/02/17 - 15:41,AL_16 MB,2.875,1.750,5650.00,5650.00,0.055,0.055,6106.00,6106.00,X,40,1.05,X,228000,55.865,30,03/02/17 - 15:41,17054,8264,5904,-1076,4.1,39.0,7.087,100.00,39.0,98.7,1076.3,471556.0,5,X,X,X,X,X,X,X,X,
El-Hamra\AL#16 MB.021,05/28/17 - 11:56,AL_16 MB,2.875,1.750,5650.00,5650.00,0.055,0.055,6106.00,6106.00,X,40,1.05,X,228000,55.865,30,05/28/17 - 11:59,14888,8505,3578,-155,3.2,49.5,7.171,98.58,48.8,124.9,154.5,412610.0,15,X,X,X,X,X,X,X,X,
El-Hamra\AL#16 MB.023,06/06/17 - 22:49,AL_16 MB,2.875,1.750,5650.00,5650.00,0.055,0.055,6106.00,6106.00,X,40,1.05,X,228000,55.865,30,06/06/17 - 22:49,13539,8779,2091,-1171,2.3,46.3,7.171,97.06,44.9,115.0,1170.9,364290.5,0,X,X,X,X,X,X,X,X,
El-Hamra\AL#16 MB.025,06/17/17 - 12:12,AL_16 MB,2.875,1.750,5650.00,5650.00,0.055,0.055,6106.00,6106.00,X,40,1.05,X,228000,55.865,30,06/17/17 - 12:12,10933,8793,977,-1575,-0.5,52.7,7.200,2.49,1.3,3.4,1574.9,287401.7,0,46188,10248,38887,6183,X,X,X,X,
El-Hamra\AL#16 MB.027,06/17/17 - 22:38,AL_16 MB,2.875,1.750,5650.00,5650.00,0.055,0.055,6106.00,6106.00,X,40,1.05,X,228000,55.865,30,06/17/17 - 22:38,11657,9939,680,-355,0.7,54.9,7.171,17.57,9.6,24.7,355.2,301120.3,8,X,X,X,X,X,X,X,X,
El-Hamra\AL#16 MB.028,06/18/17 - 15:33,AL_16 MB,2.875,1.750,5650.00,5650.00,0.055,0.055,6106.00,6106.00,X,40,1.05,X,228000,55.865,30,X,X,X,X,X,X,X,X,X,X,X,X,X,X,X,X,X,X,X,X,X,X,
El-Hamra\AL#16 MB.029,08/29/17 - 09:50,X,0.000,0.000,0.00,0.00,0,0,0.00,0.00,0.0,0,0,X,0,0.000,0,X,X,X,X,X,X,X,X,X,X,X,X,X,X,X,X,X,X,X,X,X,X,
El-Hamra\AL#16 MB.030,10/21/17 - 16:42,AL_16,2.875,1.750,5650.00,5650.00,0,0,0.00,0.00,0.0,0,0,X,228000,54.000,30,X,X,X,X,X,X,X,X,X,X,X,X,X,X,X,X,X,X,X,X,X,X,
El-Hamra\AL#16 MB.031,10/29/17 - 09:27,AL_16,3.500,X,5650.00,5650.00,0,0,X,X,X,40,1.05,X,228000,51.724,30,X,X,X,X,X,X,X,X,X,X,X,X,X,X,X,X,X,X,X,X,X,X,
El-Hamra\AL#17 BMB.001,04/16/15 - 10:22,AL_17 BMB,3.500,2.250,3721.00,3721.00,0.03721,0.03721,6268.00,6268.00,X,40,1.05,X,228000,74.000,30,04/16/15 - 10:22,7263,5557,253,-189,0.7,74.6,9.137,11.27,8.4,45.4,189.5,259408.8,6,X,X,X,X,X,X,X,X,
El-Hamra\AL#17 BMB.002,06/17/15 - 16:55,AL_17 BMB,3.500,2.250,3721.00,3721.00,0.03721,0.03721,6268.00,6268.00,X,40,1.05,X,228000,74.000,30,X,X,X,X,X,X,X,X,X,X,X,X,X,X,X,X,X,X,2677,501,19,174.2,
El-Hamra\AL#17 BMB.003,11/26/15 - 08:40,AL_17 BMB,3.500,2.250,3721.00,3721.00,0.03721,0.03721,6268.00,6268.00,X,40,1.05,X,228000,74.000,30,11/26/15 - 08:40,7113,5874,459,-269,0.7,73.8,9.137,13.96,10.3,55.5,268.8,265224.1,7,X,X,X,X,X,X,X,X,
El-Hamra\AL#17 BMB.004,11/29/15 - 10:42,AL_17 BMB,3.500,2.250,3721.00,3721.00,0.03721,0.03721,6268.00,6268.00,X,40,1.05,X,228000,74.000,30,11/29/15 - 10:42,7620,5608,213,-128,0.8,74.9,9.091,32.46,24.3,130.5,128.0,267270.6,24,X,X,X,X,X,X,X,X,
El-Hamra\AL#17 BMB.005,12/21/15 - 09:25,AL_17 BMB,3.500,2.250,3721.00,3721.00,0.03721,0.03721,6268.00,6268.00,X,40,1.05,X,228000,74.000,30,12/21/15 - 09:25,7807,5385,414,-288,1.4,74.1,8.955,100.00,74.1,391.5,287.8,275421.8,1,X,X,X,X,X,X,X,X,
El-Hamra\AL#17 BMB.006,12/21/15 - 09:32,AL_17 BMB,3.500,2.250,3721.00,3721.00,0.03721,0.03721,6268.00,6268.00,X,40,1.05,X,228000,74.000,30,X,X,X,X,X,X,X,X,X,X,X,X,X,X,7180,6247,6730,6732,X,X,X,X,
El-Hamra\AL#17 BMB.007,02/15/16 - 10:40,AL_17 BMB,3.500,2.250,3721.00,3721.00,0.03721,0.03721,6268.00,6268.00,X,40,1.05,X,228000,74.000,30,02/15/16 - 10:40,9858,5418,2849,-447,4.7,69.4,9.000,97.33,67.6,359.0,447.0,354153.5,14,X,X,X,X,X,X,X,X,
El-Hamra\AL#17 BMB.008,03/04/16 - 08:36,AL_17 BMB,3.500,2.250,3721.00,3721.00,0.03721,0.03721,6268.00,6268.00,X,40,1.05,X,228000,74.000,30,03/04/16 - 08:36,10270,5320,2793,-83,4.8,71.4,8.867,98.82,70.6,369.5,83.2,360188.9,6,X,X,X,X,2804,524,19,167.2,
El-Hamra\AL#17 BMB.009,11/01/16 - 09:15,AL_17 BMB,3.500,2.250,3725.00,3725.00,0.03721,0.03721,6268.00,6268.00,X,40,1.05,X,228000,74.000,30,11/01/16 - 09:15,8017,5809,370,-165,1.2,76.3,9.045,100.00,76.3,407.5,165.3,280635.1,6,8005,6530,6457,6739,X,X,X,X,
El-Hamra\AL#17 BMB.010,11/13/16 - 10:24,AL_17 BMB,3.500,2.250,3725.00,3725.00,0.03721,0.03721,6268.00,6268.00,X,40,1.05,X,228000,74.000,30,11/13/16 - 10:24,9565,5705,2428,-683,4.1,68.8,8.955,97.67,67.2,355.2,683.5,350291.3,14,X,X,X,X,X,X,X,X,
El-Hamra\AL#17 BMB.011,01/29/17 - 14:47,AL_17 BMB,3.500,2.250,3725.00,3725.00,0.03721,0.03721,6268.00,6268.00,X,40,1.05,X,228000,74.000,30,01/29/17 - 14:47,10292,5560,2499,-68,4.7,72.1,9.278,97.59,70.4,385.5,68.2,356057.1,12,X,X,X,X,X,X,X,X,
El-Hamra\AL#17 BMB.012,03/02/17 - 15:21,AL_17 BMB,3.500,2.250,3725.00,3725.00,0.03721,0.03721,6268.00,6268.00,X,40,1.05,X,228000,74.000,30,03/02/17 - 15:21,10909,5563,2659,-28,4.4,74.7,9.326,96.16,71.9,395.6,27.9,358770.9,6,X,X,X,X,X,X,X,X,
El-Hamra\AL#17 BMB.013,04/27/17 - 09:41,AL_17 BMB,3.500,2.250,3725.00,3725.00,0.03721,0.03721,6268.00,6268.00,X,40,1.05,X,228000,74.000,30,04/27/17 - 09:41,8902,5632,1357,-663,3.0,71.4,9.326,61.72,44.1,242.7,662.8,317867.4,7,X,X,X,X,X,X,X,X,
El-Hamra\AL#17 BMB.014,04/27/17 - 09:44,AL_17 BMB,3.500,2.250,3725.00,3725.00,0.03721,0.03721,6268.00,6268.00,X,40,1.05,X,228000,74.000,30,04/27/17 - 09:44,8666,5619,1144,-634,2.6,71.3,9.278,60.40,43.1,236.0,634.0,308970.2,7,8448,6530,6854,6739,X,X,X,X,
El-Hamra\AL#17 BMB.015,08/19/17 - 08:21,AL_17 BMB,3.500,2.250,3725.00,3725.00,0.03721,0.03721,6268.00,6268.00,X,40,1.05,X,228000,74.000,30,08/19/17 - 08:21,8241,6027,1142,-493,2.4,73.3,9.326,62.71,46.0,253.0,493.1,311820.2,12,X,X,X,X,X,X,X,X,
El-Hamra\AL#17 BMB.016,08/26/17 - 16:48,AL_17 BMB,3.500,2.250,3725.00,3725.00,0.03721,0.03721,6268.00,6268.00,X,40,1.05,X,228000,74.000,30,08/26/17 - 16:48,7470,6135,444,-317,0.5,74.2,9.375,7.37,5.5,30.2,316.5,267453.3,0,X,X,X,X,X,X,X,X,
El-Hamra\AL#17 BMB.017,08/29/17 - 17:37,AL_17 BMB,3.500,2.250,3575.00,3575.00,0.03721,0.03721,6268.00,6268.00,X,40,1.05,X,228000,74.000,30,08/29/17 - 17:39,9894,5461,2212,-396,4.3,73.6,9.231,100.00,73.6,401.1,396.3,340705.7,10,X,X,X,X,X,X,X,X,
El-Hamra\AL#17 BMB.018,09/02/17 - 07:51,AL_17 BMB,3.500,2.250,3575.00,3575.00,0.03721,0.03721,6268.00,6268.00,X,40,1.05,X,228000,74.000,30,09/02/17 - 07:54,8103,5504,578,-121,1.9,74.6,9.375,99.44,74.2,410.7,121.0,289305.9,5,X,X,X,X,X,X,X,X,
El-Hamra\AL#17 BMB.019,09/05/17 - 14:40,AL_17 BMB,3.500,2.250,3054.00,3054.00,0.03721,0.03721,6268.00,6268.00,X,40,1.05,X,228000,74.000,30,09/05/17 - 14:43,9632,5111,2269,-780,4.2,75.6,9.231,98.52,74.5,405.9,779.5,373435.2,1,X,X,X,X,X,X,X,X,
El-Hamra\AL#17 BMB.020,09/06/17 - 17:40,AL_17 BMB,3.500,2.250,3054.00,3054.00,0.03721,0.03721,6268.00,6268.00,X,40,1.05,X,228000,74.000,30,09/06/17 - 17:40,10514,5380,2100,-112,3.9,73.2,9.326,98.12,71.8,395.3,111.5,356312.4,4,X,X,X,X,X,X,X,X,
El-Hamra\AL#18 LB.001,03/17/14 - 08:47,AL_18 LB,2.875,2.000,4929.00,4929.00,0.04625,0.04625,6146.00,6146.00,X,40,1.05,X,228000,64.000,30,03/17/14 - 08:47,10003,8900,485,-340,0.6,63.5,7.200,37.41,23.8,79.8,339.9,318084.4,0,X,X,X,X,X,X,X,X,
El-Hamra\AL#18 LB.002,06/21/14 - 08:21,AL_18 LB,2.875,2.000,4929.00,4929.00,0.04625,0.04625,6146.00,6146.00,X,40,1.05,X,228000,64.000,30,06/21/14 - 08:21,12910,7788,2418,-226,2.6,63.3,7.143,94.10,59.5,198.3,226.2,420086.8,5,X,X,X,X,X,X,X,X,
El-Hamra\AL#18 LB.003,09/02/14 - 15:57,AL_18 LB,2.875,2.000,4929.00,4929.00,0.04625,0.04625,6146.00,6146.00,X,40,1.05,X,228000,64.000,30,09/02/14 - 15:59,13704,8700,3128,-42,3.3,68.3,7.004,99.34,67.9,221.7,41.8,405687.0,3,X,X,X,X,X,X,X,X,
El-Hamra\AL#18 LB.004,02/14/16 - 12:04,AL_18 LB,2.875,2.000,4929.00,4929.00,0.04625,0.04625,6146.00,6146.00,X,40,1.05,X,228000,64.000,30,02/14/16 - 12:04,13275,8093,2797,-187,3.1,58.9,6.923,96.88,57.1,184.2,187.2,426614.3,4,X,X,X,X,X,X,X,X,
[...]
El-Hamra\AL#22 AR.024,05/28/17 - 08:54,AL_22 AR,2.875,1.750,5525.00,5525.00,0.053035,0.053035,5757.00,5757.00,X,40,1.05,X,228000,64.000,50,X,X,X,X,X,X,X,X,X,X,X,X,X,X,17024,9617,14560,6047,X,X,X,X,
El-Hamra\AL#22 AR.025,05/29/17 - 15:40,AL_22 AR,2.875,1.750,5525.00,5525.00,0.053035,0.053035,5757.00,5757.00,X,40,1.05,X,228000,64.000,50,05/29/17 - 15:40,15262,8044,4263,-148,3.8,51.6,7.115,88.66,45.8,116.3,148.0,498634.7,5,X,X,X,X,X,X,X,X,
El-Hamra\AL#22 AR.026,07/09/17 - 17:40,AL_22 AR,2.875,1.750,5525.00,5525.00,0.053035,0.053035,5757.00,5757.00,X,40,1.05,X,228000,64.000,50,07/09/17 - 17:40,15565,8133,4903,-135,3.9,49.2,7.087,90.22,44.4,112.4,135.3,507743.2,6,X,X,X,X,X,X,X,X,
El-Hamra\AL#22 AR.027,08/17/17 - 16:31,AL_22 AR,2.875,1.750,5525.00,5525.00,0.053035,0.053035,5757.00,5757.00,X,40,1.05,X,228000,64.000,50,08/17/17 - 16:31,15755,8166,4959,-636,4.0,47.0,7.087,88.33,41.5,105.0,635.9,513740.7,2,X,X,X,X,X,X,X,X,
El-Hamra\AL#22 AR.028,10/10/17 - 09:09,AL_22 AR,2.875,1.750,5525.00,5525.00,0.053035,0.053035,5757.00,5757.00,X,40,1.05,X,228000,64.000,50,10/10/17 - 09:09,16126,7854,5006,-142,4.3,52.7,7.004,93.30,49.2,123.0,142.4,526271.9,4,14376,9617,11756,6047,X,X,X,X,
El-Hamra\AL#22 AR.029,02/16/18 - 09:46,AL_22 AR,2.875,1.750,5525.00,5525.00,0.053035,0.053035,5757.00,5757.00,X,40,1.05,X,228000,64.000,50,02/16/18 - 09:46,10701,9230,1214,-726,1.1,60.2,7.258,27.55,16.6,43.0,726.5,355486.2,0,10271,9617,8324,6047,X,X,X,X,
El-Hamra\AL#22 AR.030,02/20/18 - 13:28,AL_22 AR,2.875,1.750,5525.00,5525.00,0.053035,0.053035,5757.00,5757.00,X,40,1.05,X,228000,64.000,50,02/20/18 - 13:28,10251,8779,435,-553,0.8,63.6,7.258,98.50,62.7,162.4,552.5,330631.8,5,X,X,X,X,X,X,X,X,
El-Hamra\AL#22 AR.031,02/21/18 - 10:27,AL_22 AR,2.875,1.750,5525.00,5525.00,0.053035,0.053035,5757.00,5757.00,X,40,1.05,X,228000,64.000,50,02/21/18 - 10:28,10803,8547,443,-367,1.2,66.4,7.258,100.00,66.4,172.0,367.5,343589.3,0,X,X,X,X,X,X,X,X,
El-Hamra\AL#22 AR.032,03/04/18 - 09:30,AL_22 AR,2.875,1.750,5525.00,5525.00,0.053035,0.053035,5757.00,5757.00,X,40,1.05,X,228000,64.000,50,03/04/18 - 09:30,11135,8937,745,-65,1.1,66.5,7.229,99.38,66.1,170.7,65.1,339638.1,0,X,X,X,X,X,X,X,X,
El-Hamra\AL#22 AR.033,05/27/18 - 08:25,AL_22 AR,2.875,1.750,5525.00,5525.00,0.053035,0.053035,5757.00,5757.00,X,40,1.05,X,228000,64.000,50,05/27/18 - 08:25,10813,8687,267,-565,0.2,66.7,7.258,100.00,66.7,173.0,565.5,315369.9,6,X,X,X,X,X,X,X,X,
El-Hamra\AL#22 AR.034,05/27/18 - 08:33,AL_22 AR,2.875,1.750,5525.00,5525.00,0.053035,0.053035,5757.00,5757.00,X,40,1.05,X,228000,64.000,50,05/27/18 - 08:35,10913,8540,362,-870,-0.1,67.6,7.287,100.00,67.6,175.9,869.8,305743.1,0,2911,9617,1951,6047,X,X,X,X,
El-Hamra\AL#22 AR.035,06/03/18 - 11:40,AL_22 AR,2.875,1.750,5525.00,5525.00,0.053035,0.053035,5757.00,5757.00,X,40,1.05,X,228000,64.000,50,06/03/18 - 11:40,12002,8259,1308,-1178,2.2,58.8,7.258,96.09,56.5,146.3,1177.9,375531.1,0,X,X,X,X,X,X,X,X,
El-Hamra\AL#22 AR.036,07/13/18 - 16:58,AL_22 AR,2.875,1.750,5525.00,5525.00,0.053035,0.053035,5757.00,5757.00,X,40,1.05,X,228000,64.000,50,X,X,X,X,X,X,X,X,X,X,X,X,X,X,X,X,X,X,3594,3594,100,1163.3,
7.00,01/01/14 - 10:06,AL_23,2.875,2.000,3705.00,3705.00,0.03704,0.03704,6350.00,6350.00,X,40,1.05,X,228000,74.000,X,01/01/14 - 10:11,7959,5025,391,-1006,0.1,79.1,9.137,100.00,79.1,337.3,1006.0,215685.2,0,1073,6532,-412,5296,X,X,X,X,
7.00,09/16/14 - 09:34,AL_23,2.875,2.000,3705.00,3705.00,0.03704,0.03704,6350.00,6350.00,X,40,1.05,X,228000,74.000,X,09/16/14 - 09:36,8180,6468,1407,-811,0.7,71.8,9.184,17.61,12.6,54.2,811.4,178157.7,6,X,X,X,X,X,X,X,X,
7.00,04/29/15 - 17:05,AL_23,2.875,2.000,3705.00,3705.00,0.03704,0.03704,6350.00,6350.00,X,40,1.05,X,228000,74.000,X,X,X,X,X,X,X,X,X,X,X,X,X,X,X,X,X,X,X,2089,2089,100,705.2,
7.00,07/04/15 - 10:12,AL_23,2.875,2.000,3705.00,3705.00,0.03704,0.03704,6350.00,6350.00,X,40,1.05,X,228000,74.000,X,07/04/15 - 10:12,7710,5730,235,-311,0.6,76.5,9.184,100.00,76.5,327.7,311.3,201239.9,13,X,X,X,X,X,X,X,X,
7.00,02/15/16 - 11:04,AL_23,2.875,2.000,3705.00,3705.00,0.03704,0.03704,6350.00,6350.00,X,40,1.05,X,228000,74.000,X,02/15/16 - 11:04,11668,4836,3116,-295,4.3,77.1,9.091,99.60,76.8,325.6,294.7,228132.6,14,X,X,X,X,X,X,X,X,
7.00,03/09/16 - 11:22,AL_23,2.875,2.000,3705.00,3705.00,0.03704,0.03704,6350.00,6350.00,X,40,1.05,X,228000,74.000,X,X,X,X,X,X,X,X,X,X,X,X,X,X,X,X,X,X,X,2948,2948,100,980.3,
7.00,03/26/16 - 17:56,AL_23,2.875,2.000,3705.00,3705.00,0.03704,0.03704,6350.00,6350.00,X,40,1.05,X,228000,74.000,X,03/26/16 - 17:56,11207,5310,2586,-78,4.1,74.2,9.000,97.36,72.2,303.1,78.5,220513.1,0,X,X,X,X,X,X,X,X,
7.00,04/14/16 - 17:21,AL_23,2.875,2.000,3705.00,3705.00,0.03704,0.03704,6350.00,6350.00,X,40,1.05,X,228000,74.000,X,04/14/16 - 17:21,9710,5758,1964,-147,2.2,79.8,9.137,100.00,79.8,340.2,147.0,215400.7,0,X,X,X,X,X,X,X,X,
7.00,04/14/16 - 17:32,AL_23,2.875,2.000,3705.00,3705.00,0.03704,0.03704,6350.00,6350.00,X,40,1.05,X,228000,74.000,X,X,X,X,X,X,X,X,X,X,X,X,X,X,X,3496,6532,3556,5296,X,X,X,X,
7.00,09/15/16 - 17:36,AL_23,2.875,2.000,3705.00,3705.00,0.03704,0.03704,6350.00,6350.00,X,40,1.05,X,228000,74.000,X,09/15/16 - 17:36,8535,5622,877,-417,0.8,78.8,9.045,100.00,78.8,332.6,416.6,211950.2,0,X,X,X,X,X,X,X,X,
7.00,10/08/16 - 10:15,AL_23 LB,2.875,2.000,2891.00,2891.00,0.03704,0.03704,6350.00,6350.00,X,40,1.05,X,228000,74.000,X,10/08/16 - 10:20,6998,4142,990,-526,0.9,78.4,9.045,100.00,78.4,330.8,525.6,267563.0,0,X,X,X,X,X,X,X,X,
7.00,10/21/16 - 08:05,AL_23,2.875,2.000,2891.00,2891.00,0.03704,0.03704,6350.00,6350.00,X,40,1.05,X,228000,74.000,X,10/21/16 - 08:09,7269,4108,1046,-815,2.8,73.6,9.000,99.92,73.5,308.6,815.1,262971.6,0,9306,5225,8563,4132,X,X,X,X,
7.00,11/21/16 - 16:39,AL_23,2.875,2.000,2891.00,2891.00,0.03704,0.03704,6350.00,6350.00,X,40,1.05,X,228000,74.000,X,11/21/16 - 16:39,6842,4390,772,-318,0.9,77.3,9.375,100.00,77.3,338.1,317.9,257879.1,3,X,X,X,X,X,X,X,X,
7.00,11/24/16 - 16:18,AL_23,2.875,2.000,2891.00,2891.00,0.03704,0.03704,6350.00,6350.00,X,40,1.05,X,228000,74.000,X,11/24/16 - 16:23,6523,5205,1031,-538,0.8,72.0,9.424,10.70,7.7,33.8,538.0,220564.7,7,X,X,X,X,X,X,X,X,
7.00,11/24/16 - 16:28,AL_23,2.875,2.000,2891.00,2891.00,0.03704,0.03704,6350.00,6350.00,X,40,1.05,X,228000,74.000,X,11/24/16 - 16:31,6260,5159,809,-566,0.9,72.3,9.375,12.21,8.8,38.6,566.3,227578.3,0,6156,5225,5404,4132,X,X,X,X,
7.00,11/25/16 - 08:32,AL_23,2.875,2.000,2891.00,2891.00,0.03704,0.03704,6350.00,6350.00,X,40,1.05,X,228000,74.000,X,11/25/16 - 08:32,6795,4720,1346,-920,0.9,70.7,9.424,7.82,5.5,24.3,919.8,217117.1,9,14303,5225,11336,4132,X,X,X,X,
7.00,01/29/17 - 15:32,AL_23,2.875,2.000,2891.00,2891.00,0.03704,0.03704,6350.00,6350.00,X,40,1.05,X,228000,74.000,X,X,X,X,X,X,X,X,X,X,X,X,X,X,X,X,X,X,X,X,X,X,X,
7.00,03/02/17 - 11:21,AL_23,2.875,2.000,2891.00,2891.00,0.03704,0.03704,6350.00,6350.00,X,40,1.05,X,228000,74.000,X,03/02/17 - 11:21,9497,3733,2699,-179,4.4,72.9,9.326,99.35,72.5,315.2,178.9,274914.6,0,X,X,X,X,X,X,X,X,
7.00,03/05/17 - 09:25,AL_23,2.875,2.000,2891.00,2891.00,0.03704,0.03704,6350.00,6350.00,X,40,1.05,X,228000,74.000,X,03/05/17 - 09:27,10072,3625,3073,-215,4.7,73.0,9.278,99.41,72.5,313.9,215.0,278050.9,9,8163,5225,8352,4132,X,X,X,X,
7.00,03/27/17 - 10:20,AL_23,2.875,2.000,2891.00,2891.00,0.03704,0.03704,6350.00,6350.00,X,40,1.05,X,228000,74.000,X,03/27/17 - 10:20,8384,4129,1800,-214,2.5,77.4,9.326,100.00,77.4,336.5,213.9,258256.6,10,X,X,X,X,X,X,X,X,
7.00,04/04/17 - 23:14,AL_23,2.875,2.500,3100.00,3100.00,0.03704,0.03704,6350.00,6350.00,X,40,1.05,X,228000,74.000,X,04/04/17 - 23:16,11594,2899,4383,-936,6.5,76.4,9.326,99.30,75.8,515.5,936.1,283807.9,0,X,X,X,X,X,X,X,X,
7.00,07/09/17 - 17:33,AL_23,2.875,2.500,3100.00,3100.00,0.03704,0.03704,6350.00,6350.00,X,40,1.05,X,228000,74.000,X,07/09/17 - 17:33,12085,3462,4673,-299,6.7,71.8,9.278,96.00,68.9,466.0,299.5,286314.2,0,X,X,X,X,X,X,X,X,
7.00,09/05/17 - 08:51,AL_23,2.875,2.500,3100.00,3100.00,0.03704,0.03704,6350.00,6350.00,X,40,1.05,X,228000,74.000,X,09/05/17 - 08:51,12050,2801,5006,-844,7.1,76.2,9.231,99.11,75.5,507.9,844.2,291551.2,21,X,X,X,X,X,X,X,X,
7.00,09/05/17 - 08:57,AL_23,2.875,2.500,3100.00,3100.00,0.03704,0.03704,6350.00,6350.00,X,40,1.05,X,228000,74.000,X,X,X,X,X,X,X,X,X,X,X,X,X,X,X,25690,5515,22613,6924,X,X,X,X,
7.00,09/27/17 - 08:28,AL_23,2.875,2.500,3100.00,3100.00,0.03704,0.03704,6350.00,6350.00,X,40,1.05,X,228000,74.000,X,09/27/17 - 08:28,9192,4252,2406,-308,4.2,74.9,9.278,100.00,74.9,506.5,308.4,259204.9,7,7878,5515,7606,6924,X,X,X,X,
7.00,09/28/17 - 18:34,AL_23,2.875,2.500,3100.00,3100.00,0.03704,0.03704,6350.00,6350.00,X,40,1.05,X,228000,74.000,X,09/28/17 - 18:34,12453,2921,5247,-827,7.6,75.1,9.184,98.65,74.1,496.0,826.5,294116.3,6,X,X,X,X,X,X,X,X,
7.00,10/24/17 - 19:12,AL_23,2.875,2.500,3100.00,3100.00,0.03704,0.03704,6350.00,6350.00,X,40,1.05,X,228000,74.000,X,10/24/17 - 19:12,12543,3404,5299,-291,7.6,69.9,9.231,96.46,67.5,453.8,290.9,287296.9,4,X,X,X,X,X,X,X,X,
7.00,10/24/17 - 19:14,AL_23,2.875,2.500,3100.00,3100.00,0.03704,0.03704,6350.00,6350.00,X,40,1.05,X,228000,74.000,X,10/24/17 - 19:14,12414,3436,5282,-304,7.6,70.0,9.184,96.63,67.7,452.9,304.1,284425.8,5,8248,5515,6297,6924,X,X,X,X,
7.00,01/19/18 - 08:56,AL_23,2.875,2.500,3100.00,3100.00,0.03704,0.03704,6350.00,6350.00,X,40,1.05,X,228000,74.000,X,01/19/18 - 08:56,11400,3368,4257,-2050,7.3,63.5,9.375,94.83,60.3,411.7,2049.8,284574.0,10,X,X,X,X,X,X,X,X,
7.00,02/17/18 - 15:41,AL_23,2.875,2.500,3100.00,3100.00,0.03704,0.03704,6350.00,6350.00,X,40,1.05,X,228000,74.000,X,02/17/18 - 15:47,7773,4693,1768,-1269,2.1,68.6,9.278,14.53,10.0,67.4,1268.9,220986.4,0,7190,5515,3288,6924,X,X,X,X,
7.00,03/22/18 - 11:58,AL_23,2.875,2.500,3100.00,3100.00,0.03704,0.03704,6350.00,6350.00,X,40,1.05,X,228000,74.000,X,03/22/18 - 11:58,9366,4743,2808,-93,3.6,78.4,9.326,100.00,78.4,532.9,92.6,246509.2,11,6013,5515,4516,6924,X,X,X,X,
7.00,03/25/18 - 07:48,AL_23,2.875,2.500,2850.00,2850.00,0.03704,0.03704,6350.00,6350.00,X,40,1.05,X,228000,74.000,X,X,X,X,X,X,X,X,X,X,X,X,X,X,X,X,X,X,X,X,X,X,X,
7.00,03/25/18 - 07:52,AL_23,2.875,2.500,2850.00,2850.00,0.03704,0.03704,6350.00,6350.00,X,40,1.05,X,228000,74.000,X,X,X,X,X,X,X,X,X,X,X,X,X,X,X,X,X,X,X,X,X,X,X,
7.00,03/25/18 - 08:02,AL_23,2.875,2.500,2850.00,2850.00,0.03704,0.03704,6350.00,6350.00,X,40,1.05,X,228000,74.000,X,03/25/18 - 08:02,11139,3411,4582,-1627,7.3,64.3,9.184,98.44,63.3,423.7,1627.2,271066.6,7,8575,5129,7947,6365,X,X,X,X,
7.00,03/25/18 - 08:58,AL_23,2.875,2.500,2850.00,2850.00,0.03704,0.03704,6350.00,6350.00,X,40,1.05,X,228000,74.000,X,X,X,X,X,X,X,X,X,X,X,X,X,X,X,X,X,X,X,X,X,X,X,
7.00,03/25/18 - 09:05,AL_23,2.875,2.500,2850.00,2850.00,0.03704,0.03704,6350.00,6350.00,X,40,1.05,X,228000,74.000,X,03/25/18 - 09:05,10222,3035,3894,-1939,6.7,65.9,9.231,97.54,64.3,432.5,1939.1,283180.4,0,11735,5129,8728,6365,X,X,X,X,
7.00,03/26/18 - 08:07,AL_23,2.875,2.500,2850.00,2850.00,0.03704,0.03704,6350.00,6350.00,X,40,1.05,X,228000,74.000,X,03/26/18 - 08:07,10693,3215,4200,-2175,7.4,64.3,9.278,96.44,62.0,419.3,2174.6,283950.0,2,6201,5129,2539,6365,X,X,X,X,
7.00,03/26/18 - 15:50,AL_23,2.875,2.500,2850.00,2850.00,0.03704,0.03704,6350.00,6350.00,X,40,1.05,X,228000,74.000,X,03/26/18 - 15:50,10292,3418,3662,-1521,6.1,67.7,9.231,98.95,67.0,450.4,1521.1,281637.6,4,10756,5129,7074,6365,X,X,X,X,
7.00,07/13/18 - 17:14,AL_23,2.875,2.500,2850.00,2850.00,0.03704,0.03704,6350.00,6350.00,X,40,1.05,X,228000,74.000,X,X,X,X,X,X,X,X,X,X,X,X,X,X,X,X,X,X,X,1486,1486,100,509.2,
El-Hamra\AL#24 AR.001,06/24/14 - 17:04,AL_24 BMB,2.875,1.750,5576.00,5576.00,0.05288,0.05288,6324.00,6324.00,X,40,1.05,X,228000,54.000,30,06/24/14 - 17:13,15054,8020,4532,-184,2.6,39.8,7.031,74.20,29.5,74.2,184.1,405745.7,14,X,X,X,X,X,X,X,X,
El-Hamra\AL#24 AR.002,04/21/15 - 17:33,AL_24 BMB,2.875,1.750,5576.00,5576.00,0.05288,0.05288,6324.00,6324.00,X,40,1.05,X,228000,54.000,30,04/21/15 - 17:33,15248,7680,4435,-269,3.5,44.0,6.950,94.98,41.8,103.7,269.2,422440.4,4,X,X,X,X,X,X,X,X,
El-Hamra\AL#24 AR.003,05/06/15 - 14:59,AL_24 BMB,2.875,1.750,5576.00,5576.00,0.05288,0.05288,6324.00,6324.00,X,40,1.05,X,228000,54.000,30,05/06/15 - 15:09,16725,8366,6507,-6,2.2,31.7,6.923,57.35,18.2,44.9,5.9,422530.8,22,X,X,X,X,X,X,X,X,
El-Hamra\AL#24 AR.004,01/06/16 - 08:55,AL_24 BMB,2.875,1.750,5576.00,5576.00,0.05288,0.05288,6324.00,6324.00,X,40,1.05,X,228000,54.000,30,01/06/16 - 09:10,17203,8084,6847,-323,2.9,28.6,6.818,83.38,23.9,58.1,322.5,421412.7,66,X,X,X,X,X,X,X,X,
El-Hamra\AL#24 AR.005,01/16/16 - 09:22,AL_24 BMB,2.875,1.500,6250.00,6250.00,0.05288,0.05288,6324.00,6324.00,X,40,1.05,X,228000,54.000,30,01/16/16 - 09:22,13174,10372,1103,-313,1.1,52.8,6.923,99.94,52.7,95.8,312.6,331221.3,0,X,X,X,X,X,X,X,X,
El-Hamra\AL#24 AR.006,01/16/16 - 14:56,AL_24 BMB,2.875,1.500,6250.00,6250.00,0.05288,0.05288,6324.00,6324.00,X,40,1.05,X,228000,54.000,30,01/16/16 - 14:56,13169,10290,1045,-234,1.1,52.9,6.923,99.87,52.8,96.0,233.7,329687.6,17,X,X,X,X,X,X,X,X,
El-Hamra\AL#24 AR.007,01/17/16 - 09:03,AL_24 BMB,2.875,1.500,6250.00,6250.00,0.05288,0.05288,6324.00,6324.00,X,40,1.05,X,228000,54.000,30,01/17/16 - 09:03,13445,10429,1242,-13,1.2,56.1,6.897,100.00,56.1,101.5,12.7,334843.0,3,X,X,X,X,X,X,X,X,
El-Hamra\AL#24 AR.008,01/18/16 - 21:14,AL_24 BMB,2.875,1.750,6250.00,6250.00,0.05288,0.05288,6324.00,6324.00,X,40,1.05,X,228000,54.000,30,01/18/16 - 21:14,12864,10436,1476,-346,1.2,52.3,6.818,79.60,41.7,101.4,345.6,342894.9,7,X,X,X,X,X,X,X,X,
El-Hamra\AL#24 AR.009,03/15/16 - 10:13,AL_24 BMB,2.875,1.750,6250.00,6250.00,0.05288,0.05288,6324.00,6324.00,40.0,40,1.05,X,228000,54.000,30,03/15/16 - 10:22,19111,9735,7265,-597,3.9,33.4,6.897,100.00,33.4,82.3,597.1,499971.1,29,X,X,X,X,X,X,X,X,
El-Hamra\AL#24 AR.010,03/18/16 - 08:26,AL_24 BMB,2.875,1.750,6250.00,6250.00,0.05288,0.05288,6324.00,6324.00,40.0,40,1.05,X,228000,54.000,30,03/18/16 - 08:26,19241,9744,7554,-809,3.7,32.7,6.818,100.00,32.7,79.6,809.0,500299.3,9,X,X,X,X,X,X,X,X,
El-Hamra\AL#24 AR.011,03/28/16 - 14:33,AL_24 BMB,2.875,1.750,6250.00,6250.00,0.05288,0.05288,6324.00,6324.00,40.0,40,1.05,X,228000,54.000,30,03/28/16 - 14:33,19895,9942,7923,-437,3.7,31.3,6.870,X,29.7,73.0,437.3,511059.7,0,X,X,X,X,X,X,X,X,
El-Hamra\AL#24 AR.012,04/29/16 - 17:10,AL_24 BMB,2.875,1.750,6250.00,6250.00,0.05288,0.05288,6324.00,6324.00,40.0,40,1.05,X,228000,54.000,30,04/29/16 - 17:10,19174,9538,6887,-259,3.4,30.6,6.844,93.76,28.7,70.1,258.8,490571.9,4,X,X,X,X,X,X,X,X,
El-Hamra\AL#24 AR.013,05/10/16 - 17:34,AL_24 BMB,2.875,1.750,6250.00,6250.00,0.05288,0.05288,6324.00,6324.00,40.0,40,1.05,X,228000,54.000,30,05/10/16 - 17:34,19118,10123,6880,-186,3.2,30.8,6.950,83.63,25.8,63.9,185.8,497847.9,5,X,X,X,X,X,X,X,X,
El-Hamra\AL#24 AR.014,05/23/16 - 14:59,AL_24 BMB,2.875,1.750,6250.00,6250.00,0.05288,0.05288,6324.00,6324.00,40.0,40,1.05,X,228000,54.000,30,05/23/16 - 14:59,18560,9941,6399,-351,2.9,30.9,6.923,80.34,24.8,61.4,351.1,479120.4,0,19347,11198,16017,6936,X,X,X,X,
El-Hamra\AL#24 AR.015,05/25/16 - 07:45,AL_24 BMB,2.875,1.750,6250.00,6250.00,0.05288,0.05288,6324.00,6324.00,40.0,40,1.05,X,228000,54.000,30,05/25/16 - 07:45,17860,9630,5408,-372,3.3,35.2,6.897,94.79,33.4,82.2,371.9,468975.0,12,X,X,X,X,X,X,X,X,
El-Hamra\AL#24 AR.016,06/11/16 - 09:06,AL_24 BMB,2.875,1.750,6250.00,6250.00,0.05288,0.05288,6324.00,6324.00,40.0,40,1.05,X,228000,54.000,30,06/11/16 - 09:06,18132,9592,6141,-610,3.3,32.1,6.897,100.00,32.1,79.1,610.0,481776.4,9,X,X,X,X,X,X,X,X,
El-Hamra\AL#24 AR.017,07/13/16 - 11:21,AL_24 BMB,2.875,1.750,6250.00,6250.00,0.05288,0.05288,6324.00,6324.00,40.0,40,1.05,X,228000,54.000,30,07/13/16 - 11:21,18128,10096,5999,-242,2.3,34.1,6.923,49.24,16.8,41.5,241.8,486523.5,5,X,X,X,X,X,X,X,X,
El-Hamra\AL#24 AR.018,09/22/16 - 09:28,AL_24 BMB,2.875,1.750,6250.00,6250.00,0.05288,0.05288,6324.00,6324.00,40.0,40,1.05,X,228000,54.000,30,09/22/16 - 09:36,18392,9710,6308,-529,3.2,29.9,6.897,99.70,29.9,73.5,528.5,478735.2,7,X,X,X,X,X,X,X,X,
El-Hamra\AL#24 AR.019,10/02/16 - 09:16,AL_24 BMB,2.875,1.750,5450.00,5450.00,0.05288,0.05288,6324.00,6324.00,40.0,40,1.05,X,228000,64.000,30,10/02/16 - 09:16,10049,9101,466,-303,0.3,64.3,7.171,8.67,5.6,14.3,303.1,327402.8,7,10142,9474,9962,6061,X,X,X,X,
El-Hamra\AL#24 AR.020,11/03/16 - 11:03,AL_24 BMB,2.875,1.500,6050.00,6050.00,0.05288,0.05288,6324.00,6324.00,40.0,40,1.05,X,228000,54.019,30,11/03/16 - 11:03,16843,9417,4943,-674,2.5,35.5,6.897,78.26,27.8,50.3,673.6,432587.1,0,X,X,X,X,X,X,X,X,
El-Hamra\AL#24 AR.021,11/19/16 - 08:48,AL_24 BMB,2.875,1.500,6050.00,6050.00,0.05288,0.05288,6324.00,6324.00,40.0,40,1.05,X,228000,54.019,30,11/19/16 - 08:48,18200,9457,6320,-510,3.7,35.1,6.897,99.99,35.1,63.5,510.4,490236.4,2,X,X,X,X,X,X,X,X,
El-Hamra\AL#24 AR.022,12/13/16 - 11:34,AL_24 BMB,2.875,1.500,6050.00,6050.00,0.05288,0.05288,6324.00,6324.00,40.0,40,1.05,X,228000,54.019,30,12/13/16 - 11:34,18845,9715,7110,-244,2.9,36.6,6.870,46.76,17.1,30.8,244.4,508712.7,0,X,X,X,X,X,X,X,X,
El-Hamra\AL#24 AR.023,12/16/16 - 07:35,AL_24 BMB,2.875,1.500,6050.00,6050.00,0.05288,0.05288,6324.00,6324.00,40.0,40,1.05,X,228000,54.019,30,12/16/16 - 07:35,18066,9212,5869,-143,3.8,37.5,6.897,97.94,36.7,66.4,142.8,485560.2,0,X,X,X,X,X,X,X,X,
El-Hamra\AL#24 AR.024,02/22/17 - 10:19,AL_24 BMB,2.875,1.500,6050.00,6050.00,0.05288,0.05288,6324.00,6324.00,40.0,40,1.05,X,228000,54.019,30,02/22/17 - 10:19,17480,9445,5679,-543,2.6,32.1,6.844,81.53,26.1,46.9,543.2,451597.8,12,X,X,X,X,X,X,X,X,
El-Hamra\AL#24 AR.025,02/26/17 - 08:30,AL_24 BMB,2.875,1.500,6050.00,6050.00,0.05288,0.05288,6324.00,6324.00,40.0,40,1.05,X,228000,54.019,30,02/26/17 - 08:30,17406,9641,5597,-361,2.5,34.1,6.844,67.32,23.0,41.2,361.3,455408.1,2,X,X,X,X,X,X,X,X,
El-Hamra\AL#24 AR.026,03/09/17 - 10:37,AL_24 BMB,2.875,1.500,6050.00,6050.00,0.05288,0.05288,6324.00,6324.00,40.0,40,1.05,X,228000,54.019,30,03/09/17 - 10:37,17797,9443,5967,-470,3.1,33.5,6.818,92.28,30.9,55.3,469.6,459424.8,11,X,X,X,X,X,X,X,X,
El-Hamra\AL#24 AR.027,06/27/17 - 10:19,AL_24 BMB,2.875,1.500,6050.00,6050.00,0.05288,0.05288,6324.00,6324.00,40.0,40,1.05,X,228000,74.000,30,X,X,X,X,X,X,X,X,X,X,X,X,X,X,X,X,X,X,X,X,X,X,
El-Hamra\AL#24 AR.028,06/27/17 - 10:52,AL_24 BMB,2.875,1.500,6050.00,6050.00,0.05288,0.05288,6324.00,6324.00,40.0,40,1.05,X,228000,74.000,30,X,X,X,X,X,X,X,X,X,X,X,X,X,X,X,X,X,X,X,X,X,X,
El-Hamra\AL#24 AR.029,06/27/17 - 11:00,AL_24 BMB,2.875,1.500,6050.00,6050.00,0.05288,0.05288,6324.00,6324.00,40.0,40,1.05,X,228000,55.989,30,06/27/17 - 11:04,11605,10748,1004,-477,0.4,52.0,7.258,28.35,14.8,28.1,476.6,314104.2,0,X,X,X,X,X,X,X,X,
El-Hamra\AL#24 AR.030,07/25/17 - 11:36,AL_24 BMB,2.875,1.500,6050.00,6050.00,0.05288,0.05288,6324.00,6324.00,40.0,40,1.05,X,228000,56.229,30,07/25/17 - 11:39,11238,10710,583,-433,0.3,54.7,7.229,22.21,12.2,23.0,433.2,307044.0,20,X,X,X,X,X,X,X,X,
El-Hamra\AL#24 AR.031,09/18/17 - 11:40,AL_24 BMB,2.875,1.500,6050.00,6050.00,0.05288,0.05288,6324.00,6324.00,40.0,40,1.05,X,228000,56.229,30,09/18/17 - 11:40,11436,10559,837,-583,0.6,52.9,7.171,38.68,20.5,38.5,583.0,313523.4,13,X,X,X,X,X,X,X,X,
El-Hamra\AL#24 AR.032,10/03/17 - 13:38,AL_24 BMB,2.875,1.500,6050.00,6050.00,0.05288,0.05288,6324.00,6324.00,40.0,40,1.05,X,228000,56.229,30,10/03/17 - 13:38,16075,9217,4408,-292,3.6,45.4,7.258,98.38,44.7,85.0,292.4,444241.6,0,X,X,X,X,X,X,X,X,
El-Hamra\AL#24 AR.033,03/22/18 - 08:21,AL_24 BMB,2.875,1.500,6050.00,6050.00,0.05288,0.05288,6324.00,6324.00,40.0,40,1.05,X,228000,56.229,30,03/22/18 - 08:23,11468,10377,434,-294,0.4,56.4,7.287,11.34,6.4,12.2,294.3,310455.7,0,X,X,X,X,X,X,X,X,
El-Hamra\AL#24 AR.034,03/22/18 - 16:10,AL_24 BMB,2.875,1.500,6050.00,6050.00,0.05288,0.05288,6324.00,6324.00,40.0,40,1.05,X,228000,56.229,30,03/22/18 - 16:10,11434,10433,382,-276,0.4,56.2,7.258,14.35,8.1,15.4,276.1,310982.0,3,X,X,X,X,X,X,X,X,
El-Hamra\AL#24 AR.035,03/23/18 - 10:55,AL_24 BMB,2.875,1.500,6050.00,6050.00,0.05288,0.05288,6324.00,6324.00,40.0,40,1.05,X,228000,56.229,30,03/23/18 - 10:55,11707,10685,649,-238,0.2,56.3,7.258,0.34,0.2,0.4,237.9,315766.9,7,X,X,X,X,X,X,X,X,
El-Hamra\AL#25.001,04/27/15 - 17:10,AL_25 R.S,3.500,2.500,3850.00,3850.00,0.0385,0.0385,6316.00,6316.00,X